# Wavelength (nm) T fR bR
230 0.0007 0.1527 0.0400
235 0.0007 0.1597 0.0400
240 0.0009 0.1640 0.0400
245 0.0011 0.1667 0.0400
250 0.0020 0.1690 0.0401
255 0.0044 0.1724 0.0403
260 0.0082 0.1785 0.0411
265 0.0123 0.1877 0.0429
270 0.0153 0.1972 0.0457
275 0.0181 0.1995 0.0500
280 0.0221 0.1918 0.0549
285 0.0297 0.1765 0.0602
290 0.0435 0.1584 0.0652
295 0.0669 0.1420 0.0703
300 0.1022 0.1305 0.0759
305 0.1480 0.1258 0.0827
310 0.1970 0.1301 0.0930
315 0.2424 0.1434 0.1082
320 0.2784 0.1649 0.1288
325 0.3066 0.1919 0.1548
330 0.3228 0.2200 0.1837
335 0.3365 0.2471 0.2139
340 0.3445 0.2729 0.2420
345 0.3522 0.2957 0.2706
350 0.3569 0.3147 0.2934
355 0.3610 0.3312 0.3134
360 0.3666 0.3452 0.3325
365 0.3708 0.3556 0.3447
370 0.3766 0.3639 0.3558
375 0.3831 0.3701 0.3639
380 0.3905 0.3733 0.3686
385 0.3990 0.3749 0.3712
390 0.4086 0.3746 0.3713
395 0.4200 0.3723 0.3701
400 0.4318 0.3683 0.3661
405 0.4457 0.3624 0.3615
410 0.4616 0.3553 0.3564
415 0.4761 0.3468 0.3467
420 0.4934 0.3370 0.3376
425 0.5104 0.3259 0.3261
430 0.5292 0.3137 0.3146
435 0.5471 0.3005 0.3006
440 0.5678 0.2866 0.2880
445 0.5876 0.2719 0.2736
450 0.6089 0.2568 0.2597
455 0.6288 0.2413 0.2444
460 0.6485 0.2256 0.2289
465 0.6677 0.2098 0.2135
470 0.6870 0.1942 0.1985
475 0.7033 0.1787 0.1828
480 0.7222 0.1639 0.1690
485 0.7378 0.1495 0.1548
490 0.7506 0.1356 0.1410
495 0.7644 0.1227 0.1285
500 0.7751 0.1104 0.1165
505 0.7851 0.0991 0.1056
510 0.7953 0.0887 0.0958
515 0.8024 0.0792 0.0866
520 0.8056 0.0704 0.0782
525 0.8116 0.0628 0.0711
530 0.8149 0.0560 0.0647
535 0.8180 0.0502 0.0592
540 0.8193 0.0451 0.0545
545 0.8206 0.0408 0.0505
550 0.8176 0.0370 0.0472
555 0.8164 0.0341 0.0447
560 0.8151 0.0319 0.0428
565 0.8124 0.0303 0.0415
570 0.8089 0.0293 0.0408
575 0.8047 0.0290 0.0408
580 0.7983 0.0291 0.0413
585 0.7937 0.0300 0.0424
590 0.7869 0.0314 0.0441
595 0.7795 0.0333 0.0463
600 0.7739 0.0360 0.0491
605 0.7647 0.0391 0.0524
610 0.7588 0.0431 0.0565
615 0.7500 0.0476 0.0610
620 0.7385 0.0525 0.0660
625 0.7303 0.0583 0.0718
630 0.7187 0.0645 0.0780
635 0.7088 0.0715 0.0849
640 0.6985 0.0791 0.0925
645 0.6877 0.0874 0.1007
650 0.6745 0.0961 0.1091
655 0.6637 0.1056 0.1186
660 0.6505 0.1156 0.1282
665 0.6390 0.1262 0.1389
670 0.6246 0.1372 0.1493
675 0.6113 0.1488 0.1605
680 0.5984 0.1610 0.1725
685 0.5854 0.1735 0.1849
690 0.5692 0.1864 0.1962
695 0.5554 0.1997 0.2089
700 0.5421 0.2133 0.2223
705 0.5282 0.2272 0.2357
710 0.5138 0.2414 0.2488
715 0.4999 0.2557 0.2625
720 0.4867 0.2702 0.2769
725 0.4726 0.2849 0.2903
730 0.4596 0.2995 0.3049
735 0.4458 0.3142 0.3183
740 0.4327 0.3289 0.3324
745 0.4198 0.3436 0.3463
750 0.4079 0.3582 0.3616
755 0.3955 0.3727 0.3754
760 0.3825 0.3870 0.3877
765 0.3706 0.4012 0.4012
770 0.3593 0.4152 0.4153
775 0.3480 0.4290 0.4285
780 0.3366 0.4425 0.4406
785 0.3263 0.4559 0.4542
790 0.3162 0.4690 0.4676
795 0.3057 0.4818 0.4789
800 0.2956 0.4943 0.4900
805 0.2864 0.5066 0.5026
810 0.2772 0.5186 0.5141
815 0.2686 0.5303 0.5263
820 0.2594 0.5417 0.5351
825 0.2511 0.5528 0.5457
830 0.2428 0.5636 0.5550
835 0.2351 0.5741 0.5650
840 0.2279 0.5843 0.5759
845 0.2207 0.5943 0.5853
850 0.2135 0.6039 0.5934
855 0.2070 0.6133 0.6036
860 0.2010 0.6224 0.6146
865 0.1956 0.6312 0.6279
870 0.1891 0.6398 0.6338
875 0.1832 0.6481 0.6406
880 0.1776 0.6562 0.6483
885 0.1722 0.6640 0.6559
890 0.1667 0.6716 0.6606
895 0.1617 0.6789 0.6676
900 0.1571 0.6860 0.6758
905 0.1528 0.6929 0.6851
910 0.1483 0.6996 0.6915
915 0.1440 0.7060 0.6978
920 0.1397 0.7123 0.7025
925 0.1357 0.7184 0.7083
930 0.1319 0.7243 0.7140
935 0.1282 0.7300 0.7195
940 0.1245 0.7355 0.7235
945 0.1212 0.7409 0.7301
950 0.1179 0.7461 0.7351
955 0.1147 0.7511 0.7399
960 0.1116 0.7560 0.7447
965 0.1087 0.7607 0.7492
970 0.1059 0.7653 0.7552
975 0.1030 0.7698 0.7580
980 0.1004 0.7741 0.7622
985 0.0978 0.7783 0.7662
990 0.0953 0.7823 0.7702
995 0.0929 0.7863 0.7740
1000 0.0906 0.7901 0.7777
1005 0.0883 0.7938 0.7813
1010 0.0862 0.7974 0.7848
1015 0.0841 0.8009 0.7882
1020 0.0821 0.8043 0.7914
1025 0.0801 0.8076 0.7947
1030 0.0782 0.8108 0.7978
1035 0.0764 0.8139 0.8008
1040 0.0746 0.8170 0.8037
1045 0.0729 0.8199 0.8066
1050 0.0713 0.8228 0.8094
1055 0.0697 0.8256 0.8121
1060 0.0681 0.8283 0.8147
1065 0.0665 0.8309 0.8156
1070 0.0651 0.8335 0.8197
1075 0.0637 0.8360 0.8222
1080 0.0624 0.8384 0.8261
1085 0.0611 0.8408 0.8284
1090 0.0598 0.8431 0.8307
1095 0.0586 0.8453 0.8329
1100 0.0573 0.8475 0.8350
1105 0.0561 0.8496 0.8354
1110 0.0549 0.8517 0.8358
1115 0.0538 0.8537 0.8377
1120 0.0528 0.8557 0.8413
1125 0.0517 0.8576 0.8432
1130 0.0507 0.8595 0.8450
1135 0.0497 0.8613 0.8468
1140 0.0488 0.8631 0.8485
1145 0.0478 0.8648 0.8502
1150 0.0469 0.8665 0.8518
1155 0.0460 0.8682 0.8517
1160 0.0451 0.8698 0.8533
1165 0.0444 0.8714 0.8565
1170 0.0436 0.8729 0.8615
1175 0.0428 0.8744 0.8612
1180 0.0420 0.8759 0.8626
1185 0.0413 0.8773 0.8641
1190 0.0405 0.8787 0.8637
1195 0.0398 0.8801 0.8650
1200 0.0392 0.8814 0.8698
1205 0.0385 0.8828 0.8711
1210 0.0378 0.8840 0.8706
1215 0.0371 0.8853 0.8701
1220 0.0365 0.8865 0.8713
1225 0.0359 0.8877 0.8724
1230 0.0353 0.8889 0.8753
1235 0.0348 0.8900 0.8764
1240 0.0342 0.8912 0.8775
1245 0.0336 0.8923 0.8786
1250 0.0331 0.8933 0.8797
1255 0.0326 0.8944 0.8807
1260 0.0321 0.8954 0.8817
1265 0.0315 0.8964 0.8809
1270 0.0310 0.8974 0.8819
1275 0.0306 0.8984 0.8828
1280 0.0301 0.8993 0.8855
1285 0.0297 0.9003 0.8882
1290 0.0292 0.9012 0.8873
1295 0.0288 0.9021 0.8882
1300 0.0284 0.9030 0.8908
1305 0.0280 0.9038 0.8917
1310 0.0276 0.9047 0.8925
1315 0.0272 0.9055 0.8933
1320 0.0268 0.9063 0.8941
1325 0.0264 0.9071 0.8949
1330 0.0260 0.9079 0.8956
1335 0.0256 0.9087 0.8964
1340 0.0253 0.9094 0.8971
1345 0.0249 0.9101 0.8979
1350 0.0246 0.9109 0.8968
1355 0.0242 0.9116 0.8975
1360 0.0239 0.9123 0.8964
1365 0.0236 0.9130 0.8988
1370 0.0233 0.9136 0.8995
1375 0.0229 0.9143 0.9001
1380 0.0226 0.9149 0.9008
1385 0.0223 0.9156 0.9014
1390 0.0221 0.9162 0.9020
1395 0.0217 0.9168 0.9008
1400 0.0214 0.9174 0.8978
1405 0.0211 0.9180 0.8984
1410 0.0209 0.9186 0.8989
1415 0.0206 0.9192 0.8995
1420 0.0204 0.9198 0.9000
1425 0.0201 0.9203 0.9006
1430 0.0199 0.9209 0.9029
1435 0.0196 0.9214 0.9016
1440 0.0194 0.9219 0.9039
1445 0.0192 0.9224 0.9063
1450 0.0190 0.9230 0.9068
1455 0.0187 0.9235 0.9073
1460 0.0185 0.9240 0.9096
1465 0.0183 0.9244 0.9100
1470 0.0181 0.9249 0.9105
1475 0.0179 0.9254 0.9110
1480 0.0177 0.9259 0.9096
1485 0.0175 0.9263 0.9100
1490 0.0173 0.9268 0.9123
1495 0.0171 0.9272 0.9127
1500 0.0169 0.9276 0.9168
1505 0.0167 0.9281 0.9172
1510 0.0165 0.9285 0.9158
1515 0.0164 0.9289 0.9181
1520 0.0162 0.9293 0.9185
1525 0.0160 0.9297 0.9189
1530 0.0158 0.9301 0.9193
1535 0.0157 0.9305 0.9196
1540 0.0155 0.9309 0.9200
1545 0.0153 0.9313 0.9204
1550 0.0152 0.9317 0.9208
1555 0.0150 0.9320 0.9211
1560 0.0148 0.9324 0.9215
1565 0.0147 0.9328 0.9218
1570 0.0145 0.9331 0.9222
1575 0.0144 0.9335 0.9207
1580 0.0142 0.9338 0.9210
1585 0.0141 0.9341 0.9214
1590 0.0139 0.9345 0.9217
1595 0.0138 0.9348 0.9202
1600 0.0137 0.9351 0.9223
1605 0.0135 0.9354 0.9208
1610 0.0134 0.9358 0.9211
1615 0.0132 0.9361 0.9214
1620 0.0131 0.9364 0.9217
1625 0.0130 0.9367 0.9202
1630 0.0128 0.9370 0.9205
1635 0.0127 0.9373 0.9226
1640 0.0126 0.9376 0.9247
1645 0.0125 0.9379 0.9232
1650 0.0124 0.9381 0.9234
1655 0.0123 0.9384 0.9256
1660 0.0122 0.9387 0.9258
1665 0.0120 0.9390 0.9242
1670 0.0119 0.9392 0.9245
1675 0.0118 0.9395 0.9266
1680 0.0117 0.9398 0.9250
1685 0.0116 0.9400 0.9253
1690 0.0115 0.9403 0.9237
1695 0.0114 0.9405 0.9258
1700 0.0113 0.9408 0.9260
1705 0.0112 0.9410 0.9244
1710 0.0111 0.9413 0.9246
1715 0.0110 0.9415 0.9249
1720 0.0109 0.9418 0.9251
1725 0.0108 0.9420 0.9272
1730 0.0107 0.9422 0.9274
1735 0.0106 0.9424 0.9276
1740 0.0105 0.9427 0.9242
1745 0.0104 0.9429 0.9262
1750 0.0103 0.9431 0.9264
1755 0.0102 0.9433 0.9285
1760 0.0101 0.9436 0.9269
1765 0.0101 0.9438 0.9271
1770 0.0100 0.9440 0.9291
1775 0.0099 0.9442 0.9275
1780 0.0098 0.9444 0.9277
1785 0.0097 0.9446 0.9279
1790 0.0096 0.9448 0.9281
1795 0.0096 0.9450 0.9264
1800 0.0095 0.9452 0.9303
1805 0.0095 0.9454 0.9380
1810 0.0094 0.9456 0.9363
1815 0.0093 0.9458 0.9402
1820 0.0092 0.9459 0.9404
1825 0.0092 0.9461 0.9406
1830 0.0091 0.9463 0.9389
1835 0.0090 0.9465 0.9391
1840 0.0089 0.9467 0.9393
1845 0.0089 0.9469 0.9357
1850 0.0088 0.9470 0.9359
1855 0.0087 0.9472 0.9398
1860 0.0087 0.9474 0.9418
1865 0.0086 0.9475 0.9364
1870 0.0085 0.9477 0.9347
1875 0.0085 0.9479 0.9386
1880 0.0084 0.9480 0.9350
1885 0.0083 0.9482 0.9333
1890 0.0083 0.9484 0.9353
1895 0.0082 0.9485 0.9355
1900 0.0081 0.9487 0.9337
1905 0.0081 0.9488 0.9339
1910 0.0080 0.9490 0.9340
1915 0.0079 0.9491 0.9323
1920 0.0079 0.9493 0.9306
1925 0.0078 0.9494 0.9307
1930 0.0078 0.9496 0.9346
1935 0.0077 0.9497 0.9329
1940 0.0077 0.9499 0.9368
1945 0.0076 0.9500 0.9369
1950 0.0075 0.9502 0.9333
1955 0.0075 0.9503 0.9353
1960 0.0074 0.9504 0.9355
1965 0.0074 0.9506 0.9356
1970 0.0073 0.9507 0.9376
1975 0.0073 0.9508 0.9415
1980 0.0073 0.9510 0.9435
1985 0.0072 0.9511 0.9418
1990 0.0071 0.9512 0.9381
1995 0.0071 0.9514 0.9345
2000 0.0070 0.9515 0.9346
2005 0.0070 0.9516 0.9366
2010 0.0069 0.9517 0.9349
2015 0.0069 0.9519 0.9369
2020 0.0069 0.9520 0.9389
2025 0.0068 0.9521 0.9409
2030 0.0068 0.9522 0.9410
2035 0.0067 0.9524 0.9430
2040 0.0067 0.9525 0.9431
2045 0.0066 0.9526 0.9357
2050 0.0065 0.9527 0.9302
2055 0.0065 0.9528 0.9359
2060 0.0065 0.9529 0.9379
2065 0.0064 0.9531 0.9324
2070 0.0064 0.9532 0.9344
2075 0.0064 0.9533 0.9382
2080 0.0063 0.9534 0.9383
2085 0.0063 0.9535 0.9385
2090 0.0063 0.9536 0.9423
2095 0.0062 0.9537 0.9405
2100 0.0061 0.9538 0.9350
2105 0.0061 0.9539 0.9295
2110 0.0061 0.9540 0.9315
2115 0.0060 0.9541 0.9316
2120 0.0060 0.9542 0.9335
2125 0.0060 0.9543 0.9355
2130 0.0059 0.9544 0.9337
2135 0.0059 0.9545 0.9301
2140 0.0058 0.9546 0.9246
2145 0.0058 0.9547 0.9228
2150 0.0057 0.9548 0.9247
2155 0.0057 0.9549 0.9248
2160 0.0057 0.9550 0.9231
2165 0.0056 0.9551 0.9194
2170 0.0056 0.9552 0.9195
2175 0.0055 0.9553 0.9177
2180 0.0055 0.9554 0.9123
2185 0.0055 0.9555 0.9105
2190 0.0054 0.9556 0.9069
2195 0.0054 0.9557 0.9070
2200 0.0053 0.9557 0.9052
2205 0.0053 0.9558 0.9034
2210 0.0053 0.9559 0.9017
2215 0.0052 0.9560 0.8944
2220 0.0052 0.9561 0.8963
2225 0.0052 0.9562 0.9001
2230 0.0051 0.9563 0.9038
2235 0.0051 0.9563 0.9058
2240 0.0051 0.9564 0.9022
2245 0.0051 0.9565 0.9022
2250 0.0050 0.9566 0.9060
2255 0.0050 0.9567 0.9079
2260 0.0050 0.9567 0.9061
2265 0.0050 0.9568 0.9099
2270 0.0049 0.9569 0.9100
2275 0.0049 0.9570 0.9101
2280 0.0049 0.9571 0.9139
2285 0.0049 0.9571 0.9121
2290 0.0048 0.9572 0.9140
2295 0.0048 0.9573 0.9141
2300 0.0048 0.9574 0.9104
2305 0.0047 0.9574 0.9105
2310 0.0047 0.9575 0.9124
2315 0.0047 0.9576 0.9106
2320 0.0047 0.9577 0.9070
2325 0.0046 0.9577 0.9108
2330 0.0046 0.9578 0.9127
2335 0.0046 0.9579 0.9072
2340 0.0046 0.9579 0.9054
2345 0.0045 0.9580 0.9036
2350 0.0045 0.9581 0.9056
2355 0.0045 0.9582 0.9093
2360 0.0045 0.9582 0.9075
2365 0.0044 0.9583 0.9057
2370 0.0044 0.9584 0.9021
2375 0.0044 0.9584 0.9003
2380 0.0043 0.9585 0.8967
2385 0.0043 0.9586 0.8968
2390 0.0043 0.9586 0.8950
2395 0.0043 0.9587 0.8930
2400 0.0042 0.9587 0.8894
2405 0.0042 0.9588 0.8858
2410 0.0042 0.9589 0.8786
2415 0.0041 0.9589 0.8841
2420 0.0041 0.9590 0.8842
2425 0.0041 0.9591 0.8842
2430 0.0041 0.9591 0.8825
2435 0.0040 0.9592 0.8771
2440 0.0040 0.9592 0.8753
2445 0.0040 0.9593 0.8699
2450 0.0040 0.9594 0.8736
2455 0.0039 0.9594 0.8664
2460 0.0039 0.9595 0.8683
2465 0.0039 0.9595 0.8665
2470 0.0039 0.9596 0.8684
2475 0.0039 0.9597 0.8630
